 Cu Density=8.96 Thickness=100. microns
 Photon Energy (eV), Transmission
    10.000      0.00000    
    10.161      0.00000    
    10.325      0.00000    
    10.492      0.00000    
    10.661      0.00000    
    10.834      0.00000    
    11.008      0.00000    
    11.186      0.00000    
    11.367      0.00000    
    11.550      0.00000    
    11.737      0.00000    
    11.926      0.00000    
    12.119      0.00000    
    12.314      0.00000    
    12.513      0.00000    
    12.715      0.00000    
    12.920      0.00000    
    13.129      0.00000    
    13.341      0.00000    
    13.556      0.00000    
    13.775      0.00000    
    13.997      0.00000    
    14.223      0.00000    
    14.453      0.00000    
    14.686      0.00000    
    14.923      0.00000    
    15.164      0.00000    
    15.409      0.00000    
    15.657      0.00000    
    15.910      0.00000    
    16.167      0.00000    
    16.428      0.00000    
    16.693      0.00000    
    16.963      0.00000    
    17.236      0.00000    
    17.515      0.00000    
    17.797      0.00000    
    18.085      0.00000    
    18.376      0.00000    
    18.673      0.00000    
    18.974      0.00000    
    19.281      0.00000    
    19.592      0.00000    
    19.908      0.00000    
    20.230      0.00000    
    20.556      0.00000    
    20.888      0.00000    
    21.225      0.00000    
    21.568      0.00000    
    21.916      0.00000    
    22.270      0.00000    
    22.629      0.00000    
    22.994      0.00000    
    23.365      0.00000    
    23.743      0.00000    
    24.126      0.00000    
    24.515      0.00000    
    24.911      0.00000    
    25.313      0.00000    
    25.722      0.00000    
    26.137      0.00000    
    26.559      0.00000    
    26.988      0.00000    
    27.423      0.00000    
    27.866      0.00000    
    28.316      0.00000    
    28.773      0.00000    
    29.237      0.00000    
    29.709      0.00000    
    30.189      0.00000    
    30.676      0.00000    
    31.171      0.00000    
    31.674      0.00000    
    32.185      0.00000    
    32.705      0.00000    
    33.233      0.00000    
    33.769      0.00000    
    34.314      0.00000    
    34.868      0.00000    
    35.431      0.00000    
    36.003      0.00000    
    36.584      0.00000    
    37.175      0.00000    
    37.775      0.00000    
    38.385      0.00000    
    39.004      0.00000    
    39.634      0.00000    
    40.273      0.00000    
    40.924      0.00000    
    41.584      0.00000    
    42.255      0.00000    
    42.937      0.00000    
    43.631      0.00000    
    44.335      0.00000    
    45.050      0.00000    
    45.778      0.00000    
    46.517      0.00000    
    47.267      0.00000    
    48.030      0.00000    
    48.806      0.00000    
    49.593      0.00000    
    50.394      0.00000    
    51.207      0.00000    
    52.034      0.00000    
    52.874      0.00000    
    53.727      0.00000    
    54.595      0.00000    
    55.476      0.00000    
    56.371      0.00000    
    57.281      0.00000    
    58.206      0.00000    
    59.145      0.00000    
    60.100      0.00000    
    61.070      0.00000    
    62.056      0.00000    
    63.058      0.00000    
    64.076      0.00000    
    65.110      0.00000    
    66.161      0.00000    
    67.229      0.00000    
    68.314      0.00000    
    69.417      0.00000    
    70.537      0.00000    
    71.676      0.00000    
    72.833      0.00000    
    74.008      0.00000    
    75.203      0.00000    
    76.417      0.00000    
    77.650      0.00000    
    78.904      0.00000    
    80.177      0.00000    
    81.472      0.00000    
    82.787      0.00000    
    84.123      0.00000    
    85.481      0.00000    
    86.861      0.00000    
    88.263      0.00000    
    89.687      0.00000    
    91.135      0.00000    
    92.606      0.00000    
    94.101      0.00000    
    95.620      0.00000    
    97.163      0.00000    
    98.732      0.00000    
    100.33      0.00000    
    101.94      0.00000    
    103.59      0.00000    
    105.26      0.00000    
    106.96      0.00000    
    108.69      0.00000    
    110.44      0.00000    
    112.23      0.00000    
    114.04      0.00000    
    115.88      0.00000    
    117.75      0.00000    
    119.65      0.00000    
    121.58      0.00000    
    123.54      0.00000    
    125.54      0.00000    
    127.56      0.00000    
    129.62      0.00000    
    131.71      0.00000    
    133.84      0.00000    
    136.00      0.00000    
    138.20      0.00000    
    140.43      0.00000    
    142.69      0.00000    
    145.00      0.00000    
    147.34      0.00000    
    149.72      0.00000    
    152.13      0.00000    
    154.59      0.00000    
    157.08      0.00000    
    159.62      0.00000    
    162.20      0.00000    
    164.81      0.00000    
    167.47      0.00000    
    170.18      0.00000    
    172.92      0.00000    
    175.72      0.00000    
    178.55      0.00000    
    181.43      0.00000    
    184.36      0.00000    
    187.34      0.00000    
    190.36      0.00000    
    193.43      0.00000    
    196.56      0.00000    
    199.73      0.00000    
    202.95      0.00000    
    206.23      0.00000    
    209.56      0.00000    
    212.94      0.00000    
    216.38      0.00000    
    219.87      0.00000    
    223.42      0.00000    
    227.03      0.00000    
    230.69      0.00000    
    234.42      0.00000    
    238.20      0.00000    
    242.04      0.00000    
    245.95      0.00000    
    249.92      0.00000    
    253.96      0.00000    
    258.05      0.00000    
    262.22      0.00000    
    266.45      0.00000    
    270.75      0.00000    
    275.12      0.00000    
    279.56      0.00000    
    284.08      0.00000    
    288.66      0.00000    
    293.32      0.00000    
    298.06      0.00000    
    302.87      0.00000    
    307.76      0.00000    
    312.72      0.00000    
    317.77      0.00000    
    322.90      0.00000    
    328.11      0.00000    
    333.41      0.00000    
    338.79      0.00000    
    344.26      0.00000    
    349.82      0.00000    
    355.46      0.00000    
    361.20      0.00000    
    367.03      0.00000    
    372.96      0.00000    
    378.98      0.00000    
    385.09      0.00000    
    391.31      0.00000    
    397.63      0.00000    
    404.05      0.00000    
    410.57      0.00000    
    417.19      0.00000    
    423.93      0.00000    
    430.77      0.00000    
    437.72      0.00000    
    444.79      0.00000    
    451.97      0.00000    
    459.27      0.00000    
    466.68      0.00000    
    474.21      0.00000    
    481.87      0.00000    
    489.64      0.00000    
    497.55      0.00000    
    505.58      0.00000    
    513.74      0.00000    
    522.03      0.00000    
    530.46      0.00000    
    539.02      0.00000    
    547.72      0.00000    
    556.56      0.00000    
    565.55      0.00000    
    574.68      0.00000    
    583.95      0.00000    
    593.38      0.00000    
    602.96      0.00000    
    612.69      0.00000    
    622.58      0.00000    
    632.63      0.00000    
    642.84      0.00000    
    653.22      0.00000    
    663.76      0.00000    
    674.47      0.00000    
    685.36      0.00000    
    696.42      0.00000    
    707.67      0.00000    
    719.09      0.00000    
    730.70      0.00000    
    742.49      0.00000    
    754.48      0.00000    
    766.65      0.00000    
    779.03      0.00000    
    791.60      0.00000    
    804.38      0.00000    
    817.37      0.00000    
    830.56      0.00000    
    843.97      0.00000    
    857.59      0.00000    
    871.43      0.00000    
    885.50      0.00000    
    899.79      0.00000    
    914.32      0.00000    
    929.07      0.00000    
    944.07      0.00000    
    959.31      0.00000    
    974.80      0.00000    
    990.53      0.00000    
    1006.5      0.00000    
    1022.8      0.00000    
    1039.3      0.00000    
    1056.1      0.00000    
    1073.1      0.00000    
    1090.4      0.00000    
    1108.0      0.00000    
    1125.9      0.00000    
    1144.1      0.00000    
    1162.5      0.00000    
    1181.3      0.00000    
    1200.4      0.00000    
    1219.8      0.00000    
    1239.4      0.00000    
    1259.5      0.00000    
    1279.8      0.00000    
    1300.4      0.00000    
    1321.4      0.00000    
    1342.8      0.00000    
    1364.4      0.00000    
    1386.5      0.00000    
    1408.8      0.00000    
    1431.6      0.00000    
    1454.7      0.00000    
    1478.2      0.00000    
    1502.0      0.00000    
    1526.3      0.00000    
    1550.9      0.00000    
    1575.9      0.00000    
    1601.4      0.00000    
    1627.2      0.00000    
    1653.5      0.00000    
    1680.2      0.00000    
    1707.3      0.00000    
    1734.9      0.00000    
    1762.9      0.00000    
    1791.3      0.00000    
    1820.2      0.00000    
    1849.6      0.00000    
    1879.5      0.00000    
    1909.8      0.00000    
    1940.6      0.00000    
    1972.0      0.00000    
    2003.8      0.00000    
    2036.1      0.00000    
    2069.0      0.00000    
    2102.4      0.00000    
    2136.3      0.00000    
    2170.8      0.00000    
    2205.9      0.00000    
    2241.5      0.00000    
    2277.7      0.00000    
    2314.4      0.00000    
    2351.8      0.00000    
    2389.7      0.00000    
    2428.3      0.00000    
    2467.5      0.00000    
    2507.3      0.00000    
    2547.8      0.42039E-44
    2588.9      0.24383E-42
    2630.7      0.14220E-40
    2673.2      0.70327E-39
    2716.3      0.29577E-37
    2760.2      0.10712E-35
    2804.7      0.33530E-34
    2850.0      0.91230E-33
    2896.0      0.21692E-31
    2942.8      0.45334E-30
    2990.3      0.83642E-29
    3038.5      0.13692E-27
    3087.6      0.19991E-26
    3137.4      0.26146E-25
    3188.1      0.30766E-24
    3239.5      0.32723E-23
    3291.8      0.31560E-22
    3345.0      0.27727E-21
    3398.9      0.22265E-20
    3453.8      0.16407E-19
    3509.6      0.11131E-18
    3566.2      0.69784E-18
    3623.8      0.40539E-17
    3682.3      0.21896E-16
    3741.7      0.11027E-15
    3802.1      0.51910E-15
    3863.5      0.22926E-14
    3925.8      0.95171E-14
    3989.2      0.37221E-13
    4053.6      0.13757E-12
    4119.0      0.48163E-12
    4185.5      0.16004E-11
    4253.1      0.50580E-11
    4321.7      0.15233E-10
    4391.5      0.43811E-10
    4462.4      0.12054E-09
    4534.4      0.31805E-09
    4607.6      0.80613E-09
    4682.0      0.19635E-08
    4757.6      0.46098E-08
    4834.3      0.10445E-07
    4912.4      0.22863E-07
    4991.7      0.48432E-07
    5072.2      0.99411E-07
    5154.1      0.19798E-06
    5237.3      0.38308E-06
    5321.9      0.72125E-06
    5407.8      0.13215E-05
    5495.0      0.23617E-05
    5583.7      0.41190E-05
    5673.9      0.70146E-05
    5765.5      0.11689E-04
    5858.5      0.19053E-04
    5953.1      0.30447E-04
    6049.2      0.47672E-04
    6146.8      0.73246E-04
    6246.1      0.11058E-03
    6346.9      0.16405E-03
    6449.3      0.23934E-03
    6553.4      0.34372E-03
    6659.2      0.48611E-03
    6766.7      0.67752E-03
    6875.9      0.93111E-03
    6986.9      0.12627E-02
    7099.7      0.16905E-02
    7214.3      0.22356E-02
    7330.7      0.29217E-02
    7449.1      0.37756E-02
    7569.3      0.48264E-02
    7691.5      0.61058E-02
    7815.6      0.76481E-02
    7941.8      0.94894E-02
    8070.0      0.11667E-01
    8200.3      0.14220E-01
    8332.6      0.17186E-01
    8467.1      0.20606E-01
    8603.8      0.24517E-01
    8742.7      0.28957E-01
    8883.8      0.33956E-01
    9027.2      0.12157E-10
    9172.9      0.32098E-10
    9321.0      0.81970E-10
    9471.4      0.20285E-09
    9624.3      0.48656E-09
    9779.7      0.11321E-08
    9937.5      0.25558E-08
    10098.      0.56116E-08
    10261.      0.11979E-07
    10427.      0.24886E-07
    10595.      0.50345E-07
    10766.      0.99263E-07
    10940.      0.19087E-06
    11116.      0.35824E-06
    11296.      0.65680E-06
    11478.      0.11771E-05
    11663.      0.20631E-05
    11852.      0.35399E-05
    12043.      0.59494E-05
    12237.      0.98006E-05
    12435.      0.15837E-04
    12635.      0.25117E-04
    12839.      0.39121E-04
    13047.      0.59877E-04
    13257.      0.90131E-04
    13471.      0.13347E-03
    13689.      0.19460E-03
    13910.      0.27945E-03
    14134.      0.39553E-03
    14362.      0.55203E-03
    14594.      0.76014E-03
    14830.      0.10331E-02
    15069.      0.13867E-02
    15312.      0.18390E-02
    15560.      0.24108E-02
    15811.      0.31254E-02
    16066.      0.40083E-02
    16325.      0.50878E-02
    16589.      0.63948E-02
    16857.      0.79609E-02
    17129.      0.98204E-02
    17405.      0.12008E-01
    17686.      0.14559E-01
    17972.      0.17509E-01
    18262.      0.20894E-01
    18556.      0.24747E-01
    18856.      0.29101E-01
    19160.      0.33986E-01
    19470.      0.39429E-01
    19784.      0.45452E-01
    20103.      0.52079E-01
    20428.      0.59326E-01
    20757.      0.67204E-01
    21092.      0.75719E-01
    21433.      0.84876E-01
    21779.      0.94669E-01
    22130.      0.10510    
    22488.      0.11614    
    22851.      0.12779    
    23220.      0.14003    
    23594.      0.15282    
    23975.      0.16615    
    24362.      0.17998    
    24755.      0.19428    
    25155.      0.20902    
    25561.      0.22415    
    25974.      0.23963    
    26393.      0.25543    
    26819.      0.27151    
    27252.      0.28782    
    27692.      0.30432    
    28139.      0.32097    
    28593.      0.33774    
    29054.      0.35457    
    29523.      0.37144    
    30000.      0.38831    
